t (s),V (mV)
0,15.7701
0.966,15.7579
1.93,15.7445
2.926,15.698
3.926,15.6844
4.927,15.6676
5.927,15.6535
6.926,15.6322
7.926,15.6006
8.927,15.5571
9.927,15.5348
10.927,15.5168
11.926,15.4839
12.926,15.4551
13.926,15.4447
14.927,15.4324
15.926,15.4077
16.926,15.3713
17.927,15.3618
18.926,15.3373
19.927,15.2996
20.927,15.2914
21.927,15.258
22.927,15.2558
23.926,15.2066
24.926,15.1848
25.926,15.1656
26.926,15.1615
27.926,15.1283
28.926,15.1113
29.926,15.0885
30.926,15.0639
31.927,15.0458
32.927,15.0265
33.926,15.0152
34.926,14.9896
35.927,14.9699
36.927,14.9532
37.927,14.9248
38.927,14.9123
39.926,14.8757
40.926,14.8833
41.926,14.8374
42.926,14.8166
43.927,14.8232
44.927,14.8062
45.926,14.7816
46.926,14.7467
47.926,14.7522
48.926,14.7347
49.926,14.7142
50.927,14.6732
51.927,14.6837
52.927,14.667
53.927,14.6462
54.926,14.6297
55.926,14.6094
56.926,14.5963
57.927,14.5755
58.926,14.559
59.927,14.54
60.927,14.5308
61.927,14.506
62.927,14.4906
63.926,14.4791
64.927,14.4619
65.926,14.4244
66.927,14.4317
67.926,14.4173
68.927,14.393
69.926,14.3799
70.927,14.3591
71.926,14.3461
72.926,14.3095
73.927,14.3145
74.927,14.2986
75.926,14.2819
76.926,14.2695
77.927,14.2362
78.927,14.2474
79.927,14.2365
80.926,14.2149
81.926,14.2087
82.926,14.1983
83.927,14.1808
84.926,14.1633
85.926,14.1492
86.927,14.1418
87.927,14.1049
88.927,14.1106
89.927,14.1062
90.927,14.0967
91.927,14.0863
92.927,14.067
93.927,14.045
94.926,14.0567
95.926,14.0484
96.926,14.0432
97.926,14.0365
98.926,14.0296
99.926,14.0247
100.926,14.0186
101.926,14.0146
102.926,13.993
103.927,14.0102
104.927,14.0067
105.926,14.0027
106.927,13.9922
107.926,13.9662
108.926,13.9775
109.926,13.9718
110.926,13.9684
111.926,13.9514
112.926,13.9484
113.926,13.9373
114.926,13.9224
115.927,13.9219
116.926,13.9034
117.926,13.8898
118.927,13.875
119.927,13.854
120.926,13.8233
121.926,13.7959
122.926,13.7689
123.926,13.7461
124.927,13.7219
125.927,13.6986
126.927,13.6744
127.927,13.6516
128.926,13.6259
129.927,13.6045
130.927,13.5832
131.926,13.5566
132.927,13.5447
133.927,13.5279
134.926,13.5097
135.927,13.4883
136.927,13.4693
137.927,13.4498
138.926,13.4364
139.926,13.4198
140.927,13.4079
141.926,13.3873
142.926,13.3825
143.926,13.3598
144.926,13.3396
145.926,13.3188
146.926,13.3106
147.927,13.2889
148.927,13.2836
149.926,13.2599
150.926,13.2439
151.927,13.2372
152.927,13.1935
153.927,13.184
154.926,13.1904
155.926,13.1681
156.927,13.1549
157.927,13.1341
158.927,13.1253
159.926,13.1147
160.926,13.0964
161.927,13.0888
162.926,13.081
163.927,13.0586
164.926,13.0745
165.926,13.0654
166.927,13.0529
167.927,13.0297
168.926,13.0221
169.927,13.0154
170.926,12.9951
171.926,12.9877
172.927,12.9772
173.927,12.9676
174.927,12.9533
175.926,12.9493
176.926,12.9421
177.927,12.9264
178.927,12.9305
179.927,12.919
180.926,12.905
181.927,12.8978
182.926,12.8909
183.926,12.8769
184.926,12.8668
185.926,12.8491
186.926,12.845
187.926,12.826
188.927,12.8187
189.927,12.7932
190.927,12.7886
191.927,12.7768
192.927,12.7657
193.926,12.746
194.926,12.7432
195.926,12.7317
196.927,12.7343
197.927,12.7244
198.926,12.7111
199.927,12.6984
200.927,12.6871
201.927,12.6732
202.926,12.656
203.926,12.6538
204.926,12.6456
205.926,12.6343
206.927,12.6224
207.927,12.6006
208.927,12.601
209.927,12.598
210.927,12.5849
211.927,12.57
212.927,12.5615
213.927,12.5561
214.927,12.5385
215.927,12.534
216.926,12.5329
217.926,12.5128
218.926,12.5125
219.926,12.5079
220.926,12.5013
221.927,12.4879
222.927,12.4769
223.927,12.471
224.927,12.4575
225.927,12.4502
226.926,12.4404
227.926,12.4243
228.926,12.416
229.926,12.4084
230.926,12.3993
231.926,12.3871
232.926,12.3756
233.926,12.366
234.926,12.3601
235.927,12.3468
236.927,12.3352
237.927,12.3145
238.926,12.3219
239.927,12.3082
240.926,12.2965
241.926,12.2876
242.926,12.2809
243.926,12.269
244.926,12.2597
245.926,12.2507
246.926,12.2403
247.926,12.2272
248.927,12.2167
249.927,12.21
250.927,12.1931
251.927,12.171
252.927,12.1673
253.926,12.163
254.926,12.1455
255.926,12.1354
256.927,12.1223
257.927,12.1219
258.927,12.1082
259.926,12.1028
260.926,12.0929
261.926,12.085
262.926,12.0759
263.926,12.069
264.926,12.0591
265.927,12.0481
266.926,12.0344
267.926,12.0256
268.927,12.0157
269.927,12.0061
270.926,11.9924
271.926,11.9761
272.927,11.9663
273.926,11.9514
274.926,11.9415
275.926,11.9329
276.926,11.9274
277.926,11.9126
278.926,11.9067
279.927,11.8952
280.927,11.8836
281.927,11.8767
282.927,11.8716
283.926,11.8593
284.926,11.8464
285.926,11.8099
286.926,11.8023
287.926,11.8056
288.926,11.7952
289.926,11.7621
290.926,11.7564
291.926,11.7423
292.926,11.7356
293.926,11.7335
294.927,11.7185
295.927,11.7057
296.927,11.6911
297.927,11.6825
298.927,11.675
299.927,11.664
300.926,11.6506
301.926,11.6434
302.927,11.6361
303.926,11.6317
304.926,11.6194
305.926,11.6114
306.926,11.603
307.926,11.5944
308.927,11.5839
309.927,11.5919
310.927,11.5805
311.927,11.5756
312.927,11.5583
313.926,11.5435
314.926,11.5352
315.926,11.526
316.927,11.5088
317.926,11.5102
318.927,11.493
319.927,11.4795
320.926,11.4718
321.927,11.4647
322.927,11.4527
323.926,11.4461
324.927,11.4361
325.926,11.4296
326.926,11.4142
327.926,11.4087
328.926,11.4031
329.926,11.3947
330.927,11.3838
331.927,11.378
332.927,11.3682
333.927,11.3506
334.927,11.3464
335.927,11.3358
336.927,11.3245
337.927,11.3153
338.926,11.3042
339.926,11.2978
340.926,11.2798
341.927,11.2759
342.927,11.2662
343.927,11.2616
344.927,11.253
345.927,11.2426
346.926,11.2372
347.926,11.2258
348.926,11.2176
349.926,11.2063
350.927,11.1995
351.927,11.1877
352.927,11.1805
353.927,11.1743
354.927,11.1649
355.927,11.1484
356.926,11.144
357.926,11.1366
358.927,11.1211
359.927,11.1113
360.927,11.101
361.926,11.0944
362.926,11.0899
363.927,11.0784
364.927,11.0677
365.927,11.0554
366.927,11.0508
367.926,11.0457
368.926,11.0329
369.926,11.0286
370.926,11.0189
371.926,11.0113
372.927,11.0104
373.926,11.0033
374.926,10.9893
375.927,10.992
376.927,10.9797
377.927,10.9682
378.926,10.9714
379.926,10.9551
380.926,10.9463
381.926,10.9379
382.926,10.9431
383.926,10.9267
384.926,10.9083
385.926,10.9124
386.926,10.9005
387.926,10.8962
388.927,10.8947
389.927,10.8777
390.927,10.8614
391.927,10.8499
392.926,10.8379
393.926,10.8507
394.926,10.8205
395.927,10.8334
396.926,10.8219
397.927,10.8212
398.926,10.8196
399.927,10.8015
400.927,10.7944
401.926,10.784
402.926,10.7666
403.926,10.7645
404.926,10.7587
405.926,10.7478
406.927,10.738
407.927,10.7275
408.926,10.7223
409.926,10.7066
410.926,10.6992
411.927,10.6889
412.927,10.6809
413.926,10.6723
414.926,10.6631
415.926,10.6517
416.926,10.6349
417.926,10.6146
418.927,10.6239
419.926,10.618
420.926,10.5866
421.925,10.5962
422.925,10.584
423.926,10.5788
424.925,10.5733
425.925,10.5596
426.926,10.5521
427.925,10.5225
428.925,10.5332
429.925,10.5251
430.925,10.4933
431.925,10.4805
432.925,10.4955
433.925,10.4818
434.925,10.4716
435.926,10.4434
436.926,10.4526
437.926,10.4295
438.926,10.4191
439.926,10.4087
440.926,10.4279
441.926,10.415
442.926,10.4157
443.925,10.3969
444.926,10.3959
445.926,10.3892
446.925,10.3834
447.925,10.368
448.926,10.3567
449.926,10.3452
450.926,10.336
451.926,10.3316
452.926,10.3215
453.926,10.3109
454.926,10.3097
455.926,10.3037
456.926,10.2982
457.926,10.2937
458.925,10.279
459.926,10.2734
460.926,10.2576
461.926,10.237
462.925,10.2285
463.925,10.2198
464.925,10.2216
465.925,10.225
466.925,10.2055
467.925,10.1937
468.925,10.17
469.926,10.1895
470.925,10.1818
471.925,10.1577
472.925,10.151
473.925,10.1676
474.926,10.1352
475.925,10.1478
476.926,10.1208
477.925,10.1114
478.925,10.1026
479.925,10.1176
480.925,10.1148
481.925,10.096
482.925,10.0901
483.925,10.087
484.925,10.0778
485.925,10.075
486.925,10.0711
487.925,10.0651
488.925,10.0561
489.926,10.0521
490.926,10.0404
491.926,10.0254
492.926,10.0278
493.925,10.0163
494.925,10.0105
495.925,10.0133
496.925,10.0034
497.925,10.0033
498.927,9.9994
499.927,9.9876
500.927,9.9822
501.926,9.9689
502.926,9.9571
503.926,9.9493
504.927,9.9476
505.927,9.9379
506.926,9.928
507.926,9.9236
508.926,9.9126
509.926,9.9086
510.926,9.9036
511.926,9.9011
512.927,9.9007
513.927,9.8848
514.926,9.8731
515.926,9.8726
516.926,9.8643
517.927,9.8652
518.927,9.8493
519.927,9.8469
520.927,9.8342
521.926,9.8303
522.926,9.8314
523.927,9.8176
524.926,9.8143
525.926,9.8009
526.927,9.7962
527.927,9.7767
528.927,9.7867
529.927,9.7846
530.927,9.7794
531.926,9.7567
532.926,9.7579
533.927,9.7521
534.926,9.7452
535.926,9.7334
536.926,9.7333
537.926,9.7197
538.926,9.7144
539.926,9.7095
540.926,9.7069
541.926,9.6991
542.926,9.695
543.926,9.6871
544.926,9.6804
545.926,9.6758
546.927,9.6674
547.927,9.661
548.927,9.6587
549.926,9.6545
550.926,9.6474
551.926,9.632
552.926,9.6292
553.926,9.6194
554.926,9.6152
555.926,9.6104
556.927,9.6169
557.926,9.6076
558.926,9.5883
559.927,9.5836
560.927,9.5859
561.927,9.5821
562.926,9.5696
563.926,9.5596
564.927,9.5444
565.927,9.5434
566.926,9.5145
567.926,9.5117
568.926,9.5217
569.927,9.5143
570.926,9.5011
571.926,9.5007
572.927,9.4882
573.927,9.481
574.927,9.4759
575.927,9.4661
576.926,9.4359
577.927,9.4377
578.927,9.43
579.926,9.4432
580.926,9.435
581.927,9.437
582.927,9.4228
583.927,9.4242
584.927,9.4095
585.927,9.3941
586.927,9.3904
587.927,9.3818
588.927,9.3785
589.926,9.3721
590.926,9.3578
591.926,9.3509
592.926,9.3495
593.926,9.3453
594.927,9.3463
595.927,9.3307
596.926,9.3297
597.926,9.3199
598.926,9.3149
599.926,9.312
600.927,9.3088
601.927,9.2995
602.926,9.289
603.927,9.2828
604.926,9.2783
605.926,9.2679
606.927,9.2703
607.926,9.2598
608.926,9.2578
609.927,9.2493
610.926,9.246
611.927,9.2421
612.926,9.2307
613.926,9.2218
614.927,9.2132
615.926,9.2053
616.926,9.204
617.927,9.1982
618.926,9.1903
619.927,9.1763
620.926,9.1738
621.926,9.1708
622.926,9.1412
623.927,9.1383
624.927,9.1202
625.927,9.1227
626.926,9.1107
627.927,9.1022
628.927,9.0942
629.926,9.0848
630.926,9.0715
631.926,9.097
632.927,9.0844
633.926,9.0793
634.926,9.0691
635.926,9.0684
636.927,9.0642
637.927,9.0508
638.926,9.0238
639.926,9.0255
640.927,9.0389
641.926,9.0227
642.926,8.9957
643.926,9.0068
644.927,9.0027
645.927,8.9923
646.926,8.9923
647.926,8.9892
648.926,8.9632
649.927,8.9797
650.926,8.9788
651.927,8.942
652.926,8.9595
653.926,8.9456
654.927,8.9371
655.926,8.9347
656.926,8.9362
657.926,8.9213
658.926,8.908
659.927,8.8941
660.926,8.8897
661.927,8.9032
662.926,8.8977
663.926,8.8897
664.927,8.8785
665.926,8.8754
666.927,8.8817
667.927,8.8727
668.927,8.8679
669.927,8.8683
670.927,8.8576
671.927,8.8509
672.927,8.8387
673.927,8.8332
674.926,8.8152
675.926,8.8164
676.926,8.8115
677.926,8.8073
678.926,8.8024
679.927,8.7968
680.926,8.7854
681.926,8.7801
682.927,8.771
683.926,8.7642
684.926,8.7503
685.927,8.7487
686.926,8.7431
687.926,8.7361
688.927,8.7276
689.926,8.7198
690.926,8.7143
691.927,8.7104
692.927,8.7055
693.926,8.7056
694.926,8.7011
695.927,8.6972
696.926,8.6837
697.926,8.6753
698.926,8.6693
699.927,8.664
700.926,8.6611
701.927,8.6564
702.926,8.6539
703.927,8.6528
704.926,8.6399
705.927,8.6363
706.926,8.6309
707.927,8.6291
708.926,8.6307
709.927,8.6256
710.926,8.6136
711.927,8.6057
712.926,8.5936
713.927,8.5757
714.927,8.5919
715.926,8.5889
716.927,8.5635
717.926,8.5599
718.927,8.5741
719.926,8.5367
720.927,8.5279
721.927,8.5239
722.927,8.5262
723.927,8.5131
724.927,8.5221
725.926,8.5231
726.926,8.5174
727.926,8.5131
728.927,8.5127
729.926,8.5128
730.927,8.4935
731.926,8.5048
732.927,8.4818
733.926,8.4681
734.927,8.4643
735.927,8.4737
736.926,8.4636
737.927,8.4722
738.926,8.4749
739.926,8.4602
740.927,8.4496
741.927,8.4519
742.926,8.4488
743.927,8.447
744.926,8.4367
745.927,8.4307
746.926,8.4222
747.926,8.4143
748.926,8.4116
749.927,8.4047
750.926,8.402
751.926,8.3925
752.926,8.3936
753.927,8.3869
754.927,8.3806
755.926,8.3755
756.927,8.3626
757.926,8.3557
758.926,8.354
759.926,8.358
760.926,8.3468
761.927,8.3358
762.927,8.3365
763.926,8.3246
764.926,8.3289
765.927,8.3209
766.927,8.3218
767.926,8.3101
768.927,8.3067
769.926,8.308
770.926,8.2948
771.927,8.2914
772.927,8.281
773.927,8.2724
774.926,8.2728
775.926,8.2696
776.926,8.2651
777.927,8.2571
778.927,8.2558
779.927,8.2527
780.926,8.2427
781.926,8.2368
782.927,8.2305
783.926,8.2238
784.927,8.221
785.926,8.2145
786.927,8.2084
787.927,8.2071
788.927,8.1997
789.926,8.1941
790.927,8.1888
791.927,8.1783
792.927,8.1841
793.927,8.1798
794.926,8.1689
795.926,8.1668
796.926,8.1536
797.926,8.1508
798.927,8.143
799.927,8.1363
800.927,8.1303
801.926,8.1245
802.927,8.123
803.926,8.1135
804.926,8.1105
805.926,8.1093
806.927,8.104
807.926,8.0992
808.926,8.0951
809.927,8.0888
810.926,8.0803
811.926,8.0735
812.927,8.0732
813.926,8.0666
814.926,8.0542
815.926,8.0431
816.927,8.0437
817.927,8.0423
818.926,8.0299
819.927,8.0387
820.926,8.0311
